{'ad5de': {'x': [151.34085097908974, 147.2234794318676, 142.56983766198158, 138.0883873884678, 133.92848288784026, 130.11989850356102, 126.66121628990555], 'y': [33.52146150218323, 34.1074557502754, 34.78091069521383, 35.4244577713795, 36.023412503609805, 36.56596581196979, 37.06758148656526], 'heading': [4.569708314034153, 4.569708314034153, 4.569708314034153, 4.569708314034153, 4.569708314034153, 4.569708314034153, 4.569708314034153], 'timeStamp': [43.7, 43.9, 44.1, 44.3, 44.5, 44.7, 44.9], 'length': 5.0, 'width': 1.8, 'height': 1.5, 'guid': 'ad5de', 'speed_x': -20.566362240986887, 'speed_y': 2.9550999869850347, 'speed': 20.777580989147175, 'acc_x': 3.2934466678334076, 'acc_y': -0.4218928674834956, 'angular_speed': 0.0, 'traj_point': [[116.7897160028913, 38.49239487162234], [107.74157738283537, 39.811735039808546], [99.51680042973781, 41.02560199112388], [92.11538514359859, 42.13399572556833], [85.53733152441774, 43.136916243141926], [79.78263957219522, 44.034363543844634]], 'traj_heading': [4.8571819941355, 4.858917813159836, 4.861038621876586, 4.863688449184307, 4.867093382914632, 4.867093382914632], 'traj_footprint': [[[119.13369663319413, 39.74369611623338], [119.39341433569541, 37.96253168951487], [114.44573537258846, 37.241093627011296], [114.18601767008718, 39.02225805372981]], [[110.08338245043812, 41.06710312341992], [110.34619153921075, 39.28639220278779], [105.39977231523262, 38.556366956197174], [105.13696322646, 40.337077876829305]], [[101.85593783724383, 42.28593376839765], [102.12252287939286, 40.50578421981965], [97.1776630222318, 39.76527021385011], [96.91107798008277, 41.545419762428104]], [[94.45117468123169, 43.400521381006754], [94.72247587082195, 41.621084485658415], [89.77959560596548, 40.86747007012991], [89.50829441637522, 42.64690696547825]], [[87.86879509439807, 44.411387750024126], [88.14615356431332, 42.63288493046878], [83.20586795443741, 41.862444736259725], [82.92850948452215, 43.640947555815075]], [[82.11410314217555, 45.308835050726834], [82.39146161209081, 43.530332231171485], [77.4511760022149, 42.759892036962434], [77.17381753229964, 44.53839485651778]]]}, 'ad6de': {'x': [151.77980202436447, 147.66252807974814, 143.0088105046749, 138.5349116950035, 134.37651842293738, 130.56823713671685, 127.1170854768982], 'y': [36.48910850100219, 37.083974448964, 37.750331760942935, 38.392376955896616, 38.991031197890635, 39.53352430240511, 40.02617375992477], 'heading': [4.569708314034153, 4.569708314034153, 4.569708314034153, 4.569708314034153, 4.569708314034153, 4.569708314034153, 4.569708314034153], 'timeStamp': [43.7, 43.9, 44.1, 44.3, 44.5, 44.7, 44.9], 'length': 5.0, 'width': 1.8, 'height': 1.5, 'guid': 'ad6de', 'speed_x': -20.552263789555294, 'speed_y': 2.947554382435488, 'speed': 20.76255340060274, 'acc_x': 3.3306114239883855, 'acc_y': -0.5110824522107636, 'angular_speed': 0.0, 'traj_point': [[117.25728001011909, 41.436065644616164], [108.23012739933709, 42.71818691625488], [100.03562764455219, 43.87253757484089], [92.67378074576439, 44.89911762037421], [86.14458670297367, 45.797927052854845], [80.44804551618006, 46.56896587228279]], 'traj_heading': [4.853474775154125, 4.852337075820582, 4.850941522641228, 4.849189257876562, 4.846923491232639, 4.846923491232639], 'traj_footprint': [[[119.60588337032341, 42.67866866104456], [119.85899613666857, 40.896553645813185], [114.90867664991477, 40.19346262818777], [114.65556388356961, 41.97557764341914]], [[110.5801429478914, 43.95811712459445], [110.83122803979934, 42.175715296548475], [105.88011185078278, 41.47825670791531], [105.62902675887484, 43.260658535961284]], [[102.38737129268128, 45.109187005150254], [102.63596870435593, 43.32643651029442], [97.6838839964231, 42.63588814453153], [97.43528658474845, 44.41863863938736]], [[95.02768771957423, 46.13164427673886], [95.27316090032053, 44.34846091052709], [90.31987377195455, 43.666590964009565], [90.07440059120825, 45.44977433022134]], [[88.50128025005809, 47.02511714616992], [88.74271252677778, 45.241382172650034], [83.78789315588925, 44.57073695953977], [83.54646087916956, 46.354471933059656]], [[82.80473906326448, 47.79615596559786], [83.04617133998417, 46.01242099207798], [78.09135196909564, 45.341775778967715], [77.84991969237595, 47.1255107524876]]]}, 'ad14de': {'x': [153.6824180930853, 149.8899837821722, 145.5657416957617, 141.354155041337, 137.38411639482976, 133.68159706264973, 130.2591639893656], 'y': [39.24120882479474, 39.788179204892366, 40.41546309201046, 41.020939203392714, 41.58418301091418, 42.11885303811893, 42.60985483414265], 'heading': [4.569708314034153, 4.569708314034153, 4.569708314034153, 4.569708314034153, 4.569708314034153, 4.569708314034153, 4.569708314034153], 'timeStamp': [43.7, 43.9, 44.1, 44.3, 44.5, 44.7, 44.9], 'length': 2.1, 'width': 0.8, 'height': 2.35, 'guid': 'ad14de', 'speed_x': -19.51937841976648, 'speed_y': 2.807205007789936, 'speed': 19.720206232435963, 'acc_x': 1.8500061881446652, 'acc_y': -0.27984292036950575, 'angular_speed': 0.0, 'traj_point': [[120.73072555300044, 43.97847697299143], [111.66478866367144, 45.27713838174784], [103.06135332137862, 46.505839060411866], [94.92041952612196, 47.66457900898351], [87.24198727790147, 48.75335822746278], [80.02605657671715, 49.77217671584969]], 'traj_heading': [4.854667333429605, 4.854244855518081, 4.853774314098676, 4.853247012759436, 4.852652022515293, 4.852652022515293], 'traj_footprint': [[[121.71339630099607, 44.52332392492722], [121.82683535071287, 43.731407526562236], [119.74805480500481, 43.43363002105564], [119.63461575528801, 44.225546419420624]], [[112.64768950976531, 45.82157012838644], [112.76079398218225, 45.0296058752037], [110.68188781757758, 44.73270663510924], [110.56878334516064, 45.52467088829198]], [[104.04451023633821, 47.049808251237174], [104.1572420442639, 46.2577908653915], [102.07819640641902, 45.96186986958656], [101.96546459849334, 46.75388725543223]], [[95.90386314006932, 48.208029704250485], [96.01617730051376, 47.41595298488318], [93.9369759121746, 47.12112831371653], [93.82466175173016, 47.91320503308384]], [[88.2257540656155, 49.29622368721391], [88.33759692828676, 48.504080282223676], [86.25822049018744, 48.210492767711656], [86.14637762751619, 49.00263617270189]], [[81.00982336443118, 50.315042175600816], [81.12166622710244, 49.52289877061058], [79.04228978900312, 49.22931125609856], [78.93044692633187, 50.0214546610888]]]}, 'ad33de': {'x': [82.75574587285519, 82.6382966786623, 82.50949824154377, 82.39037757575512, 82.27757441890239, 79.77958652951716, 79.20450179095745], 'y': [5.2970789428800344, 8.412740485742688, 11.876342749595642, 15.11659788198769, 18.019330579131843, 20.578832495081425, 23.19442876783371], 'heading': [3.1788990663511725, 3.1788990663511725, 3.1788990663511725, 3.1788990663511725, 3.1788990663511725, 3.1788990663511725, 3.1788990663511725], 'timeStamp': [43.7, 43.9, 44.1, 44.3, 44.5, 44.7, 44.9], 'length': 5.0, 'width': 1.8, 'height': 1.5, 'guid': 'ad33de', 'speed_x': -2.9593700682480946, 'speed_y': 14.91445818746145, 'speed': 15.205227200748388, 'acc_x': -2.2881777218341326, 'acc_y': -2.5003263505518603, 'angular_speed': 0.0, 'traj_point': [[77.43879454160414, 30.339117067745452], [75.1010428617923, 36.85872378001923], [72.19124675152192, 42.753248904655045], [68.709406210793, 48.02269244165289], [64.65552123960555, 52.667054391012776], [60.029591837959565, 56.68633475273469]], 'traj_heading': [5.938894022506156, 5.82463553056269, 5.699282689611086, 5.565567749227531, 5.427730284416243, 5.427730284416243], 'traj_footprint': [[[77.43543522476261, 32.996180995277186], [79.12980204730881, 32.38862764728645], [77.44215385844566, 27.682053140213718], [75.74778703589946, 28.289606488204456]], [[75.40063743145924, 39.49884557528287], [77.01468911358756, 38.70207887955646], [74.80144829212534, 34.218601984755594], [73.18739660999702, 35.015368680482005]], [[72.81857132218393, 45.33519853294831], [74.32034292598667, 44.34288706470267], [71.5639221808599, 40.17129927636178], [70.06215057705717, 41.16361074460742]], [[69.67534829683913, 50.497961292991036], [71.03142246845769, 49.31429628925514], [67.74346412474688, 45.54742359031475], [66.38738995312832, 46.73108859405065]], [[65.95240723514078, 54.986124617328606], [67.13298240591334, 53.62735963906512], [63.358635244070314, 50.34798416469694], [62.178060073297765, 51.70674914296043]], [[61.326477833494806, 59.00540497905052], [62.50705300426735, 57.64664000078703], [58.73270584242432, 54.36726452641886], [57.55213067165178, 55.726029504682344]]]}, 'ad86de': {'x': [79.71914445608854, 79.57332308143377, 79.39086852878333, 79.20855672043562, 79.02637018140554, 78.82898124133825, 78.6285520773635], 'y': [6.117569757625461, 10.103083138540388, 14.894653347358108, 19.838480841562152, 24.82163166668415, 29.803939903982283, 34.786079659105894], 'heading': [3.1788990663511725, 3.1788990663511725, 3.1788990663511725, 3.1788990663511725, 3.1788990663511725, 3.180426229446667, 3.183262389481158], 'timeStamp': [43.7, 43.9, 44.1, 44.3, 44.5, 44.7, 44.9], 'length': 5.2, 'width': 1.5, 'height': 2.35, 'guid': 'ad86de', 'speed_x': -0.9088269822708767, 'speed_y': 23.890424917900432, 'speed': 23.907705227427027, 'acc_x': -0.27303894659994776, 'acc_y': 4.983131871043605, 'angular_speed': 0.003636102608321326, 'traj_point': [[78.14000871790306, 47.35418360193656], [77.58320562179264, 61.16807051252813], [76.95814278903224, 76.22774039088061], [76.26482021962185, 92.53319323699397], [75.50323791356146, 110.08442905086824], [74.6733958708511, 128.88144783250343]], 'traj_heading': [6.242899625930055, 6.241703370933163, 6.240690003309182, 6.2398205624504035, 6.239066420037591, 6.239066420037591], 'traj_footprint': [[[77.4953316783835, 49.98228015927921], [78.99411464090939, 49.92186798135034], [78.78468575742262, 44.72608704459391], [77.28590279489673, 44.786499222522785]], [[76.94167291643704, 63.7969363873797], [78.44038253821186, 63.73473132649597], [78.22473832714824, 58.53920463767656], [76.72602870537342, 58.601409698560296]], [[76.31927442018545, 78.85725502428485], [77.81792023585349, 78.79353125179222], [77.59701115787902, 73.59822575747637], [76.09836534221098, 73.66194952996901]], [[75.6282382994171, 95.16326233473045], [77.12682814460696, 95.09823560258226], [76.9014021398266, 89.90312413925749], [75.40281229463675, 89.96815087140567]], [[74.8686396208458, 112.71497747408388], [76.36718000047655, 112.64882061037251], [76.13783620627713, 107.4538806276526], [74.63929582664638, 107.52003749136396]], [[74.03879757813543, 131.51199625571908], [75.53733795776618, 131.4458393920077], [75.30799416356676, 126.25089940928778], [73.80945378393601, 126.31705627299915]]]}, 'ad136de': {'x': [86.0966611430049, 86.26641806215048, 86.49282349199056, 86.75306284040212, 87.02016588968038, 87.2962077198863, 87.566375695436], 'y': [81.16832475038245, 75.9048545778729, 69.58844361731782, 63.04345406647399, 56.46162070047036, 49.872336365081225, 43.27277232628015], 'heading': [0.032724923474893676, 0.032724923474893676, 0.03599741582238305, 0.04123340357836604, 0.04123340357836604, 0.04123340357836604, 0.04123340357836604], 'timeStamp': [43.7, 43.9, 44.1, 44.3, 44.5, 44.7, 44.9], 'length': 5.0, 'width': 1.8, 'height': 1.5, 'guid': 'ad136de', 'speed_x': 1.22476212702592, 'speed_y': -31.579627020085354, 'speed': 31.60336825396151, 'acc_x': 0.5020552820205786, 'acc_y': -6.680469331457843, 'angular_speed': 0.007090400086227022, 'traj_point': [[88.24151366920152, 26.64790014980524], [89.04216546347222, 8.352910640465872], [89.96833107824803, -11.612196201737957], [91.02001051352899, -33.24742037680625], [92.1972037693151, -56.552761884739], [93.49991084560637, -81.52822072553622]], 'traj_heading': [3.097857114202872, 3.0952366725419593, 3.093021293108004, 3.091123811169223, 3.08948039320994, 3.08948039320994], 'traj_footprint': [[[89.03134905294182, 24.110941327397622], [87.23307029621468, 24.189640203526384], [87.45167828546123, 29.184858972212854], [89.24995704218837, 29.106160096084093]], [[89.82535019044502, 5.813890813163113], [88.02728383342541, 5.897301698269748], [88.25898073649941, 10.891930467768631], [90.05704709351902, 10.808519582661996]], [[90.74588899561635, -14.152944848325776], [88.94801183757359, -14.065550771935579], [89.1907731608797, -9.071447555150138], [90.98865031892247, -9.158841631540335]], [[91.7927460093484, -35.78963985071103], [89.99503791645901, -35.698834494260836], [90.24727501770957, -30.70520090290146], [92.04498311059896, -30.79600625935166]], [[92.96576029436478, -59.096247852422636], [91.16820386020659, -59.00248823416146], [91.4286472442654, -54.00927591705536], [93.2262036784236, -54.103035535316536]], [[94.26846737065605, -84.07170669321985], [92.47091093649786, -83.97794707495868], [92.73135432055668, -78.98473475785258], [94.52891075471487, -79.07849437611375]]]}, 'ad147de': {'x': [83.08338803052902, 83.2533363521099, 83.47240587711335, 83.73874204683304, 84.00686994657516, 84.27554958555221, 84.55180914897346], 'y': [81.52273507136852, 76.27700848598033, 69.98197209630162, 63.441175076700745, 56.842436424933375, 50.249853192551434, 43.649546992909606], 'heading': [0.032724923474893676, 0.032724923474893676, 0.035561083509384465, 0.04123340357836604, 0.04123340357836604, 0.04123340357836604, 0.04123340357836604], 'timeStamp': [43.7, 43.9, 44.1, 44.3, 44.5, 44.7, 44.9], 'length': 4.59, 'width': 1.9000000000000001, 'height': 2.35, 'guid': 'ad147de', 'speed_x': 1.22368426537037, 'speed_y': -31.560990065382516, 'speed': 31.58470353016613, 'acc_x': 0.5315562092018795, 'acc_y': -6.772898071268469, 'angular_speed': 0.007090400086227035, 'traj_point': [[85.23009580780888, 27.022439701309793], [86.04127151894477, 8.702107891892856], [86.98533628238113, -11.311448435341198], [88.06229009811797, -33.01822928039236], [89.27213296615527, -56.41823464326065], [90.61486488649304, -81.51146452394606]], 'traj_heading': [3.097344206380237, 3.09445632960697, 3.0920195972015407, 3.089935974974275, 3.088133908749641, 3.088133908749641], 'traj_footprint': [[[86.07764889348024, 24.68766374482725], [84.17950861884339, 24.77170836274857], [84.38254272213752, 29.357215657792334], [86.28068299677437, 29.273171039871016]], [[86.88207853450974, 6.364894045755381], [84.98418888511578, 6.454419900810201], [85.20046450337979, 11.039321738030331], [87.09835415277375, 10.949795882975511]], [[87.82044564265091, -13.650704162359899], [85.92277977810672, -13.556553928458204], [86.15022692211134, -8.972192708322497], [88.04789278665554, -9.066342942224193]], [[88.89252352388121, -35.35921998066126], [86.99505795205432, -35.261115935221], [87.23205667235473, -30.677238580123465], [89.12952224418162, -30.77534262556372]], [[90.09814642586129, -58.760717677219375], [88.20086072488002, -58.65919443430401], [88.44611950644925, -54.07575160930192], [90.34340520743052, -54.17727485221728]], [[91.44087834619906, -83.85394755790479], [89.54359264521779, -83.75242431498943], [89.78885142678702, -79.16898148998733], [91.68613712776829, -79.2705047329027]]]}, 'ad158de': {'x': [89.05284989625216, 89.20666468888521, 89.39124274402857, 89.64259486824274, 89.91496423965691, 90.19910302973986, 90.47803050322771], 'y': [82.52256751060486, 77.88037312962115, 72.30973991751671, 66.56163268126548, 60.786820263713594, 55.00658459274471, 49.225346591067314], 'heading': [0.03250675731839439, 0.03250675731839439, 0.03250675731839439, 0.04886921905584123, 0.04886921905584123, 0.04886921905584123, 0.04886921905584123], 'timeStamp': [43.7, 43.9, 44.1, 44.3, 44.5, 44.7, 44.9], 'length': 4.5, 'width': 1.8, 'height': 2.35, 'guid': 'ad158de', 'speed_x': 1.187650505812969, 'speed_y': -27.747684099614705, 'speed': 27.773089252295442, 'acc_x': 0.6255634042740036, 'acc_y': -5.695218103468629, 'angular_speed': 0.013635384781205991, 'traj_point': [[91.15005118166845, 34.639602278326386], [91.97846271117768, 18.630053439718296], [92.96326509175542, 1.1967000752430472], [94.10445832340166, -17.660457815099356], [95.4020424061164, -37.941420231308925], [96.85601733989964, -59.646187173385634]], 'traj_heading': [3.0898939231469678, 3.085163070784728, 3.0811485971418895, 3.0776993411197795, 3.0747038510020386, 3.0747038510020386], 'traj_footprint': [[[91.93257837451962, 32.34610032880717], [90.13498332165086, 32.43911659567373], [90.36752398881727, 36.933104227845604], [92.16511904168603, 36.84008796097904]], [[92.75013096854603, 16.332875148733873], [90.95299607617929, 16.434394499785896], [91.20679445380934, 20.92723173070272], [93.00392934617608, 20.825712379650696]], [[93.72570519409794, -1.1035575386645649], [91.92899232868784, -0.9948244743745418], [92.2008249894129, 3.4969576891506593], [93.997537854823, 3.3882246248606362]], [[94.85895972853923, -19.963331591415688], [93.06263259862794, -19.848401863561225], [93.34995691826408, -15.357584038783024], [95.14628404817537, -15.472513766637487]], [[96.14964220087754, -40.24654377395758], [94.35366740049606, -40.12623368961391], [94.65444261135525, -35.636296688660266], [96.45041741173672, -35.75660677300394]], [[97.60361713466078, -61.95131071603429], [95.80764233427931, -61.83100063169062], [96.1084175451385, -57.341063630736976], [97.90439234551997, -57.46137371508065]]]}, 'ad169de': {'x': [79.96359704434872, 82.41997788846493, 82.96848229467868, 83.13512202084064, 83.22509941852093, 83.29945495803356, 83.37030025140285], 'y': [85.12800098443404, 83.48642199942842, 81.46276171410456, 79.33606964889542, 77.16215570826009, 74.95218187458053, 72.699508703275], 'heading': [0.032943089631392974, 0.032724923474893676, 0.032724923474893676, 0.032724923474893676, 0.032724923474893676, 0.032724923474893676, 0.032724923474893676], 'timeStamp': [43.7, 43.9, 44.1, 44.3, 44.5, 44.7, 44.9], 'length': 5.2, 'width': 1.5, 'height': 2.35, 'guid': 'ad169de', 'speed_x': 2.8389193392118197, 'speed_y': -10.357076900965895, 'speed': 10.739110994261685, 'acc_x': -11.92767775373505, 'acc_y': -3.0554709314996407, 'angular_speed': -0.0001818051304160859, 'traj_point': [[83.29880020179189, 67.1390363863546], [80.24538071374714, 60.81469633655929], [74.21004178726865, 53.72648855388906], [65.1927834223564, 45.87441303834393], [53.19360561901037, 37.25846978992389], [38.212508377230584, 27.878658808628934]], 'traj_heading': [3.591389429239266, 3.8469348190107273, 3.9959523532029384, 4.089655011582082, 4.152992043800781, 4.152992043800781], 'traj_footprint': [[[85.1046363954188, 65.1237310393198], [83.75383317639987, 64.4715572407905], [81.49296400816499, 69.15434173338942], [82.84376722718392, 69.8065155319187]], [[82.50198845376325, 59.321303719830716], [81.35990379514125, 58.34886213673161], [77.98877297373103, 62.30808895328786], [79.13085763235303, 63.28053053638696]], [[76.66335945243806, 52.584677521463924], [75.67830716158471, 51.453451644689274], [71.75672412209924, 54.8682995863142], [72.74177641295259, 55.99952546308885]], [[67.74217290163175, 44.967157130145935], [66.86728574476497, 43.74872680273711], [62.64339394308105, 46.78166894654193], [63.51828109994782, 48.00009927395075]], [[55.795307752922604, 36.514395864566644], [54.99929502372567, 35.24303292073178], [50.591903485098136, 38.00254371528114], [51.38791621429507, 39.27390665911601]], [[40.81421051114282, 27.134584883271685], [40.01819778194589, 25.86322193943682], [35.61080624331835, 28.622732733986183], [36.40681897251528, 29.89409567782105]]]}, 'ad203de': {'x': [5.154274106025696, 8.198762607574462, 11.731389393806458, 15.233125720500947, 18.600262350654603, 21.819622982902526, 24.87344116357231], 'y': [65.51199091831222, 65.0707074903883, 64.56910124452784, 64.0657028116919, 63.58109002725557, 63.119296012776644, 62.681291910699514], 'heading': [1.4281156604443601, 1.4281156604443601, 1.4281156604443601, 1.4281156604443601, 1.4281156604443601, 1.4281156604443601, 1.4281156604443601], 'timeStamp': [43.7, 43.9, 44.1, 44.3, 44.5, 44.7, 44.9], 'length': 5.2, 'width': 1.5, 'height': 2.35, 'guid': 'ad203de', 'speed_x': 16.43263921462223, 'speed_y': -2.3589158396772643, 'speed': 16.601087780522715, 'acc_x': 0.04664839560514391, 'acc_y': 0.016396629233945182, 'angular_speed': 0.0, 'traj_point': [[33.08976077088342, 61.50183399086088], [41.30608037819454, 60.32237607102225], [49.52239998550566, 59.142918151183615], [57.73871959281677, 57.96346023134498], [65.95503920012789, 56.784002311506356], [74.171358807439, 55.60454439166772]], 'traj_heading': [1.7133729403415217, 1.7133729403415214, 1.7133729403415217, 1.7133729403415208, 1.7133729403415214, 1.7133729403415214], 'traj_footprint': [[[30.622713091856554, 60.389999583492525], [30.409572013013076, 61.87477932490518], [35.55680844991029, 62.61366839822924], [35.76994952875377, 61.128888656816585]], [[38.83903269916767, 59.21054166365389], [38.62589162032419, 60.69532140506655], [43.773128057221406, 61.434210478390604], [43.986269136064884, 59.949430736977945]], [[47.05535230647879, 58.03108374381526], [46.84221122763531, 59.51586348522791], [51.98944766453253, 60.25475255855197], [52.202588743376005, 58.76997281713932]], [[55.2716719137899, 56.851625823976626], [55.058530834946424, 58.336405565389285], [60.20576727184364, 59.07529463871334], [60.41890835068712, 57.59051489730068]], [[63.487991521101016, 55.672167904138], [63.27485044225754, 57.15694764555066], [68.42208687915475, 57.89583671887471], [68.63522795799823, 56.41105697746205]], [[71.70431112841214, 54.49270998429937], [71.49117004956867, 55.977489725712026], [76.63840648646587, 56.71637879903608], [76.85154756530935, 55.23159905762342]]]}, 'ad51de': {'x': [73.45295643806458, 73.25303755998611, 73.01313532948494, 72.6971464188099, 72.32054708662034, 71.93939184201241], 'y': [13.49475823994726, 18.767429287545383, 25.094634605385366, 31.63348735939711, 38.21516335136443, 44.80532178121656], 'heading': [3.1786809001946725, 3.1786809001946725, 3.1786809001946725, 3.198315854279609, 3.2004975158446016, 3.2004975158446016], 'timeStamp': [43.9, 44.1, 44.3, 44.5, 44.7, 44.9], 'length': 4.59, 'width': 1.9000000000000001, 'height': 2.35, 'guid': 'ad51de', 'speed_x': -1.5135645960521635, 'speed_y': 31.310563541269318, 'speed': 31.347125339627013, 'acc_x': -1.1327272908092016, 'acc_y': 8.234296139088826, 'angular_speed': 0.021816615649928782, 'traj_point': [[71.04101863263519, 61.489890569237325], [69.85946360055564, 80.2330333920303], [68.39472674577381, 101.03475024959548], [66.64680806828969, 123.89504114193285], [64.61570756810325, 148.81390606904245], [62.30142524521452, 175.79134503092425]], 'traj_heading': [6.2202292909314085, 6.21288710826887, 6.206872878975288, 6.201856547540777, 6.197608979293022, 6.197608979293022], 'traj_footprint': [[[70.23728928779899, 63.8401127162373], [72.1335252442823, 63.72057528553126], [71.84474797747139, 59.13966842223735], [69.94851202098808, 59.25920585294339]], [[69.07301152446571, 82.58909326648465], [70.96831871260427, 82.45563667207908], [70.64591567664557, 77.87697351757593], [68.75060848850701, 78.0104301119815]], [[67.62245869189344, 103.39549738831148], [69.51692896887995, 103.2506444642311], [69.16699479965418, 98.67400311087947], [67.27252452266767, 98.81885603495985]], [[65.88639197131903, 126.25963251455264], [67.78011178529832, 126.10527816203147], [67.40722416526035, 121.53044976931307], [65.51350435128106, 121.68480412183423]], [[63.86534206380549, 151.1817060204657], [65.7583891660441, 151.01930938039555], [65.366073072401, 146.4461061176192], [63.473025970162404, 146.60850275768934]], [[61.55105974091676, 178.1591449823475], [63.44410684315536, 177.99674834227736], [63.05179074951227, 173.423545079501], [61.158743647273674, 173.58594171957114]]]}, 'ad68de': {'x': [76.6187768355012, 76.45498752743006, 76.26475200086831, 76.06787673836946, 75.8683230364442, 75.63719963002444], 'y': [8.901881884783506, 13.322362396866083, 18.511522845178842, 23.730213545039298, 28.830604557648304, 33.8366900516212], 'heading': [3.1784627340381735, 3.1784627340381735, 3.1784627340381735, 3.1784627340381735, 3.1806443956031667, 3.1895892080196373], 'timeStamp': [43.9, 44.1, 44.3, 44.5, 44.7, 44.9], 'length': 4.5, 'width': 1.8, 'height': 2.35, 'guid': 'ad68de', 'speed_x': -0.9815772054767546, 'speed_y': 24.9348081668377, 'speed': 24.954120944792017, 'acc_x': -0.4208381146789417, 'acc_y': 3.66003113681549, 'angular_speed': 0.011126473981463984, 'traj_point': [[75.09380626295119, 46.76159802714198], [74.44520336720822, 60.60151378686665], [73.69139094279551, 75.35643733079517], [72.83236898971305, 91.02636865892758], [71.86813750796087, 107.61130777126387], [70.79869649753894, 125.111254667804]], 'traj_heading': [6.236354915258678, 6.2321408126302416, 6.22842035827354, 6.225111698323584, 6.222150111338991, 6.222150111338991], 'traj_footprint': [[[74.30012284352487, 49.05126320566214], [76.09814942717364, 48.966999307743684], [75.8874896823775, 44.47193284862182], [74.08946309872874, 44.55619674654027]], [[73.66117585063738, 62.89450328820759], [75.45883137337482, 62.80266309236928], [75.22923088377907, 58.308524285525706], [73.43157536104162, 58.400364481364015]], [[72.91589979548638, 77.65232789448613], [74.71320119039302, 77.55380025437078], [74.46688209010463, 73.06054676710421], [72.669580695198, 73.15907440721956]], [[72.06447839443807, 93.3248124876274], [73.86144395775518, 93.22033873852052], [73.60025958498802, 88.72792483022776], [71.80329402167091, 88.83239857933464]], [[71.10705731164381, 109.91201569161665], [72.9037055867332, 109.80222053863453], [72.62921770427792, 105.31059985091109], [70.83256942918854, 105.4203950038932]], [[70.03761630122189, 127.41196258815678], [71.83426457631127, 127.30216743517467], [71.559776693856, 122.81054674745123], [69.76312841876661, 122.92034190043334]]]}, 'ad197de': {'x': [11.106566667556763, 15.050107222795488, 19.495346703529357, 23.753723617076876, 27.695284228658675, 31.28637560231209], 'y': [58.848004097584635, 58.28159213634208, 57.64938702585175, 57.03376845635846, 56.468873381973054, 55.95273934088364], 'heading': [1.4281156604443601, 1.4281156604443601, 1.4281156604443601, 1.4281156604443601, 1.4281156604443601, 1.4281156604443601], 'timeStamp': [43.9, 44.1, 44.3, 44.5, 44.7, 44.9], 'length': 5.0, 'width': 1.8, 'height': 1.5, 'guid': 'ad197de', 'speed_x': 20.179808934755325, 'speed_y': -2.8952647567009957, 'speed': 20.386447622247132, 'acc_x': -2.20280738490736, 'acc_y': 0.31423700095702034, 'angular_speed': 0.0, 'traj_point': [[41.100929146576334, 54.54438658765277], [50.36478084461374, 53.21459308466115], [59.077930696424296, 51.96335883190879], [67.24037870200803, 50.79068382939569], [74.85212486136491, 49.69656807712184], [81.91316917449494, 48.68101157508724]], 'traj_heading': [1.713368887713045, 1.7134242218529516, 1.7134870214652045, 1.7135589066585317, 1.7136420028770785, 1.7136420028770785], 'traj_footprint': [[[38.754175841554854, 53.298293121908415], [38.498413767657574, 55.0800298481269], [43.447682451597814, 55.79048005339712], [43.703444525495094, 54.008743327178635]], [[48.01809649469512, 51.968369765248845], [47.762235830320165, 53.750092336365235], [52.71146519453236, 54.46081640407346], [52.967325858907316, 52.67909383295707]], [[56.731324613474285, 50.71698814408675], [56.475352058117316, 52.49869464373926], [61.42453677937431, 53.209729519730836], [61.680509334731276, 51.42802302007832]], [[64.89386222071882, 49.54414445856215], [64.63776158770715, 51.325832552974596], [69.58689518329724, 52.03722320022923], [69.84299581630891, 50.25553510581678]], [[72.50571197088489, 48.44983372394584], [72.2494632872143, 50.23150053121288], [77.19853775184494, 50.94330243029784], [77.45478643551553, 49.1616356230308]], [[79.56675628401491, 47.43427722191124], [79.31050760034432, 49.21594402917828], [84.25958206497496, 49.92774592826324], [84.51583074864556, 48.1460791209962]]]}, 'ad199de': {'x': [8.023172624409199, 10.95446801930666, 14.351069940626621, 17.712214991152287, 20.93794353300333, 24.015732660877703], 'y': [62.31980305025354, 61.90637091966346, 61.42044243114069, 60.930286933649334, 60.46730185616389, 60.028812404982006], 'heading': [1.4281156604443601, 1.4281156604443601, 1.4281156604443601, 1.4281156604443601, 1.4281156604443601, 1.4281156604443601], 'timeStamp': [43.9, 44.1, 44.3, 44.5, 44.7, 44.9], 'length': 4.59, 'width': 1.9000000000000001, 'height': 2.35, 'guid': 'ad199de', 'speed_x': 15.992560036468504, 'speed_y': -2.290990645271535, 'speed': 16.15582293344326, 'acc_x': 0.9155858311063414, 'acc_y': -0.15660825369888037, 'angular_speed': 0.0, 'traj_point': [[32.012012679111955, 58.88331708234624], [40.00829269734621, 57.73782175971047], [48.00457271558046, 56.5923264370747], [56.00085273381471, 55.446831114438936], [63.99713275204896, 54.30133579180317], [71.99341277028321, 53.1558404691674]], 'traj_heading': [1.7130818171592639, 1.7130818171592639, 1.7130818171592639, 1.7130818171592639, 1.7130818171592639, 1.7130818171592639], 'traj_footprint': [[[29.874920417521494, 57.61747283227035], [29.605489250570212, 59.49827235541876], [34.149104940702415, 60.149161332422125], [34.4185361076537, 58.26836180927372]], [[37.871200435755746, 56.471977509634584], [37.60176926880446, 58.352777032782996], [42.14538495893667, 59.00366600978636], [42.41481612588795, 57.122866486637946]], [[45.86748045399, 55.32648218699882], [45.59804928703871, 57.20728171014723], [50.14166497717092, 57.85817068715059], [50.411096144122205, 55.97737116400218]], [[53.86376047222425, 54.18098686436305], [53.594329305272964, 56.06178638751146], [58.13794499540517, 56.71267536451482], [58.40737616235646, 54.83187584136641]], [[61.8600404904585, 53.03549154172728], [61.59060932350722, 54.916291064875686], [66.13422501363942, 55.56718004187905], [66.4036561805907, 53.686380518730644]], [[69.85632050869276, 51.889996219091515], [69.58688934174147, 53.770795742239926], [74.13050503187367, 54.42168471924329], [74.39993619882496, 52.54088519609488]]]}, 'ad0de': {'x': [157.64869284629822, 157.52027049660683, 157.29816970825195, 156.96664246439934, 156.53776677155494], 'y': [38.67682331800461, 38.69596469402313, 38.728546147048476, 38.773674075827, 38.839877171322705], 'heading': [4.569708314034153, 4.569708314034153, 4.569708314034153, 4.569708314034153, 4.569708314034153], 'timeStamp': [44.1, 44.3, 44.5, 44.7, 44.9], 'length': 5.0, 'width': 1.8, 'height': 1.5, 'guid': 'ad0de', 'speed_x': -1.3886575934290994, 'speed_y': 0.20381731664762182, 'speed': 1.4035353256522385, 'acc_x': -2.5037778596084554, 'acc_y': 0.39218099564315373, 'angular_speed': 0.0, 'traj_point': [[155.53046574238934, 38.99080845410191], [153.89722024832162, 39.23978498579191], [151.63803028935178, 39.586806766392684], [148.75289586547981, 40.03187379590426], [145.24181697670576, 40.57498607432662], [141.1047936230296, 41.216143601659766]], 'traj_heading': [4.863667123350856, 4.864802249541262, 4.8654446577960755, 4.865857945594962, 4.866146138677737, 4.866146138677737], 'traj_footprint': [[[157.86628228920648, 40.257284296593674], [158.13754553076018, 38.47784161592599], [153.1946491955722, 37.724332611610144], [152.9233859540185, 39.50377529227783]], [[156.23159768068612, 40.50891145831831], [156.50488063903433, 38.729777842010506], [151.5628428159571, 37.970658513265505], [151.2895598576089, 39.74979212957331]], [[153.9715919427648, 40.85743260027149], [154.2460177747656, 39.07847491029381], [149.30446863593875, 38.31618093251388], [149.03004280393796, 40.09513862249156]], [[151.0859321854596, 41.303463953799145], [151.36109321551055, 39.52461983259534], [146.41985954550003, 38.760283638009376], [146.14469851544908, 40.53912775921318]], [[147.57448673631754, 41.84724854433536], [147.85016040550568, 40.06848379650714], [142.909147217094, 39.302723604317876], [142.63347354790585, 41.081488352146096]], [[143.43746338264137, 42.48840607166851], [143.7131370518295, 40.70964132384029], [138.77212386341782, 39.943881131651025], [138.49645019422968, 41.722645879479245]]]}, 'ad8de': {'x': [153.85732907801867, 150.9336841657758, 147.5461672833562, 144.19429858905076, 140.9779820787549], 'y': [36.18925274768844, 36.611433430854234, 37.098992016036064, 37.58048559014872, 38.04162544689551], 'heading': [4.569708314034153, 4.569708314034153, 4.569708314034153, 4.569708314034153, 4.569708314034153], 'timeStamp': [44.1, 44.3, 44.5, 44.7, 44.9], 'length': 4.59, 'width': 1.9000000000000001, 'height': 2.35, 'guid': 'ad8de', 'speed_x': -16.099183749079742, 'speed_y': 2.3154658740088396, 'speed': 16.26484244007094, 'acc_x': -2.438929983774956, 'acc_y': 0.3246597798416776, 'angular_speed': 0.0, 'traj_point': [[132.62352395624316, 39.23994085638014], [123.65933333778769, 40.519421210825186], [114.08541022338846, 41.880066510230655], [103.90175461304551, 43.321876754596545], [93.10836650675881, 44.84485194392285], [81.70524590452838, 46.44899207820958]], 'traj_heading': [4.854163775388393, 4.853563493636681, 4.853035009200484, 4.852566168100769, 4.852147413047396, 4.852147413047396], 'traj_footprint': [[[134.76126239990413, 40.504693538327885], [135.0297330161712, 38.62375666320393], [130.4857855125822, 37.97518817443239], [130.21731489631512, 39.85612504955635]], [[125.79783060420407, 41.78289041960302], [126.0651720800866, 39.90179272536357], [121.5208360713713, 39.25595200204735], [121.25349459548877, 41.1370496962868]], [[116.22457491494957, 43.14240538009813], [116.49092222269033, 41.26116666274744], [111.94624553182736, 40.61772764036318], [111.6798982240866, 42.49896635771387]], [[106.0415109058219, 44.5832125574357], [106.30697618229273, 42.70184917228431], [101.76199832026913, 42.06054095175739], [101.4965330437983, 43.94190433690878]], [[95.24865080265187, 46.10529160243633], [95.51332822544553, 44.22381721731617], [90.96808221086576, 43.584412285409364], [90.70340478807209, 45.46588667052953]], [[83.84553020042144, 47.70943173672306], [84.1102076232151, 45.8279573516029], [79.56496160863533, 45.188552419696094], [79.30028418584166, 47.07002680481626]]]}, 'ad10de': {'x': [152.92733758687973, 150.61554145812988, 147.9472082734108, 145.3285210287571, 142.84052345466614], 'y': [33.293488814961165, 33.62029126128182, 34.00243186434731, 34.3854532253854, 34.740720092000814], 'heading': [4.569708314034153, 4.569708314034153, 4.569708314034153, 4.569708314034153, 4.569708314034153], 'timeStamp': [44.1, 44.3, 44.5, 44.7, 44.9], 'length': 4.5, 'width': 1.8, 'height': 2.35, 'guid': 'ad10de', 'speed_x': -12.608517665267021, 'speed_y': 1.8090390962995653, 'speed': 12.737634794862462, 'acc_x': -1.4683453778427904, 'acc_y': 0.2372035024563547, 'angular_speed': 0.0, 'traj_point': [[136.3527214498023, 35.67489007795764], [129.49783310047772, 36.668360939528554], [122.27585840669248, 37.721132676713566], [114.68679736844652, 38.83320528951265], [106.73064998573987, 40.004578777925836], [98.40741625857252, 41.23525314195311]], 'traj_heading': [4.856315684541049, 4.857142783561742, 4.857889696902669, 4.858567545501019, 4.859185484800138, 4.859185484800138], 'traj_footprint': [[[138.4503701099163, 36.88830266183914], [138.70854467532035, 35.10691390758631], [134.25507278968828, 34.46147749407614], [133.99689822428422, 36.24286624832897]], [[131.5944774308532, 37.88350807132141], [131.85412529267572, 36.10233346229201], [127.40118877010225, 35.4532138077357], [127.14154090827972, 37.2343884167651]], [[124.37159454271095, 38.9378454810295], [124.63257271506167, 37.15686530327442], [120.180122270674, 36.504419872397634], [119.91914409832329, 38.28540005015271]], [[116.78170827598609, 40.051338405995295], [117.04389362320458, 38.27053554107623], [112.59188646090695, 37.61507217303], [112.32970111368846, 39.39587503794907]], [[108.82480776103334, 41.22400618953258], [109.08809348619842, 39.44336567923177], [104.6364922104464, 38.78515136631909], [104.37320648528133, 40.565791876619905]], [[100.50157403386599, 42.454680553559854], [100.76485975903107, 40.67404004325904], [96.31325848327906, 40.015825730346364], [96.04997275811398, 41.79646624064718]]]}, 'ad16de': {'x': [82.91785376518965, 82.91144585460424, 82.90452816456556, 82.89081117981672, 82.87660262678861], 'y': [1.0696023339405656, 1.176146693713963, 1.374974651671946, 1.6721881658658386, 2.068925358594954], 'heading': [3.1788990663511725, 3.1788990663511725, 3.1788990663511725, 3.1788990663511725, 3.1788990663511725], 'timeStamp': [44.1, 44.3, 44.5, 44.7, 44.9], 'length': 5.0, 'width': 1.8, 'height': 1.5, 'guid': 'ad16de', 'speed_x': -0.05156392300129671, 'speed_y': 1.24915378081799, 'speed': 1.2502175835778198, 'acc_x': -0.06500535368919283, 'acc_y': 2.4182736079643585, 'angular_speed': 0.0, 'traj_point': [[82.8426949960768, 2.9957864499994935], [82.79253602694271, 4.527215943395123], [82.72612571938632, 6.663213838781842], [82.64346407340763, 9.40378013615965], [82.54455108900663, 12.748914835528549], [82.42938676618336, 16.698617936888535]], 'traj_heading': [6.250443973228471, 6.252104320821908, 6.253032198942134, 6.253624712284179, 6.254035849613775, 6.254035849613775], 'traj_footprint': [[[82.02501606197939, 5.523908512071127], [83.8240513527103, 5.464984639958136], [83.66037393017422, 0.46766438792786014], [81.8613386394433, 0.5265882600408509]], [[81.97066066046186, 7.053976890135431], [83.76979130550866, 6.998040121784793], [83.61441139342357, 2.000454996654815], [81.81528074837676, 2.0563917650054524]], [[81.90190618084435, 9.189211097744266], [83.70108795389945, 9.13494372719465], [83.55034525792829, 4.137216579819419], [81.75116348487319, 4.191483950369036]], [[81.81774799255555, 11.929288590673771], [83.61696160392863, 11.876087268792954], [83.4691801542597, 6.87827168164553], [81.66996654288663, 6.931473003526346]], [[81.71779674716895, 15.274083593899473], [83.51703207952679, 15.221622000373785], [83.37130543084432, 10.223746077157625], [81.57207009848648, 10.276207670683313]], [[81.60263242434567, 19.22378669525946], [83.40186775670351, 19.17132510173377], [83.25614110802104, 14.173449178517611], [81.4569057756632, 14.2259107720433]]]}, 'ad122de': {'x': [79.94270349293947, 79.9883698657155, 80.03637582331895, 80.0858145301938, 80.13640813719033], 'y': [85.81587725272402, 84.44895541882143, 82.87970623267815, 81.35870999635382, 79.92721092733964], 'heading': [0.032943089631392974, 0.032943089631392974, 0.032943089631392974, 0.032943089631392974, 0.032943089631392974], 'timeStamp': [44.1, 44.3, 44.5, 44.7, 44.9], 'length': 5.0, 'width': 1.8, 'height': 1.5, 'guid': 'ad122de', 'speed_x': 0.24213080531357262, 'speed_y': -7.360832906730492, 'speed': 7.364814214064619, 'acc_x': 0.04106028517085846, 'acc_y': -0.5381436259299406, 'angular_speed': 0.0, 'traj_point': [[80.25747353984711, 76.2467944739744], [80.37853894250391, 72.56637802060915], [80.49960434516069, 68.88596156724391], [80.62066974781747, 65.20554511387866], [80.74173515047426, 61.52512866051342], [80.86280055313105, 57.84471220714817]], 'traj_heading': [3.1087100256696063, 3.1087100256696103, 3.1087100256696107, 3.1087100256696103, 3.1087100256696063, 3.1087100256696063], 'traj_footprint': [[[81.0747952573832, 73.71855690403683], [79.27576831019799, 73.77773496839752], [79.44015182231102, 78.77503204391198], [81.23917876949623, 78.71585397955128]], [[81.19586066004001, 70.03814045067158], [79.39683371285479, 70.09731851503227], [79.5612172249678, 75.09461559054672], [81.36024417215303, 75.03543752618603]], [[81.3169260626968, 66.35772399730634], [79.51789911551157, 66.41690206166702], [79.68228262762459, 71.41419913718148], [81.48130957480981, 71.3550210728208]], [[81.43799146535358, 62.67730754394108], [79.63896451816835, 62.73648560830177], [79.80334803028137, 67.73378268381623], [81.6023749774666, 67.67460461945555]], [[81.55905686801034, 58.996891090575836], [79.76002992082513, 59.05606915493654], [79.92441343293817, 64.05336623045099], [81.72344038012338, 63.9941881660903]], [[81.68012227066714, 55.31647463721059], [79.88109532348193, 55.37565270157128], [80.04547883559496, 60.37294977708575], [81.84450578278017, 60.31377171272506]]]}, 'ad180de': {'x': [88.981675170362, 89.09651950448752, 89.22647788017987, 89.36673537272215, 89.53155664280654], 'y': [84.6750174574554, 81.31981596313416, 77.26704094029962, 73.04805344051123, 68.77783298285007], 'heading': [0.03250675731839439, 0.03250675731839439, 0.03250675731839439, 0.03250675731839439, 0.04166973589136462], 'timeStamp': [44.1, 44.3, 44.5, 44.7, 44.9], 'length': 2.1, 'width': 0.8, 'height': 2.35, 'guid': 'ad180de', 'speed_x': 0.6873518405556771, 'speed_y': -19.871480593256713, 'speed': 19.883364743445547, 'acc_x': 0.416474466323898, 'acc_y': -7.625158027832909, 'angular_speed': 0.01145372321621303, 'traj_point': [[89.92729187137485, 57.8889479327426], [90.42714571652417, 45.0937733756769], [91.03111817825443, 30.392309311652976], [91.73920925656569, 13.784555740670827], [92.5514189514579, -4.729487337269546], [93.46774726293111, -25.149819922168156]], 'traj_heading': [3.1025466996935576, 3.1005332724262873, 3.0989822863031664, 3.097750838986968, 3.0967494070207175, 3.0967494070207175], 'traj_footprint': [[[90.2859991579876, 56.82413382571222], [89.48660891511899, 56.855362652242924], [89.56858458476209, 58.95376203977299], [90.3679748276307, 58.92253321324228]], [[90.7837083517482, 44.02823919642122], [89.98438260612723, 44.06107747267756], [90.07058308130013, 46.15930755493259], [90.8699088269211, 46.12646927867625]], [[91.38602775654937, 29.32622339052161], [90.58675390403076, 29.360301369923032], [90.6762085999595, 31.458395232784344], [91.4754824524781, 31.42431725338292]], [[92.09280573744252, 12.71803357554179], [91.2935744561839, 12.753095792496056], [91.38561277568886, 14.851077905799864], [92.18484405694747, 14.816015688845598]], [[92.90394720581945, -5.796363070369145], [92.10475143774075, -5.760500495376528], [92.19889069709636, -3.662611604169948], [92.99808646517506, -3.6984741791625644]], [[93.82027551729266, -26.216695655267756], [93.02107974921395, -26.18083308027514], [93.11521900856957, -24.082944189068556], [93.91441477664827, -24.118806764061173]]]}, 'ad201de': {'x': [4.477419003844261, 6.736246731877327, 9.242858957648277, 11.961370845913889, 14.340903745150566], 'y': [59.8074316396378, 59.48117233803496, 59.11850015891716, 61.151333370205016, 61.298355497970434], 'heading': [1.4281156604443601, 1.4281156604443601, 1.4281156604443601, 1.4281156604443601, 1.4281156604443601], 'timeStamp': [44.1, 44.3, 44.5, 44.7, 44.9], 'length': 4.5, 'width': 1.8, 'height': 2.35, 'guid': 'ad201de', 'speed_x': 12.32935592663291, 'speed_y': 1.8636548229157603, 'speed': 12.469411648693583, 'acc_x': 1.0058764266968427, 'acc_y': 3.944011911402155, 'angular_speed': 0.0, 'traj_point': [[20.631316261804123, 62.72318439835358], [27.1731978851319, 65.13401627658727], [33.96654861513388, 68.5308511326715], [41.01136845181007, 72.91368896660627], [48.30765739516048, 78.28252977839156], [55.85541544518509, 84.63737356802741]], 'traj_heading': [1.2177164427418348, 1.1071299359479252, 1.0142589843291328, 0.9364247559411063, 0.8709936168404098, 0.8709936168404098], 'traj_footprint': [[[18.20890346885242, 62.656729447116454], [18.831324272951424, 64.34569135983821], [23.053729054755827, 62.78963934959071], [22.431308250656823, 61.10067743686895]], [[24.758248249631702, 65.3353077518103], [25.563262959578672, 66.94526157623167], [29.588147520632095, 64.93272480136424], [28.783132810685125, 63.32277097694288]], [[31.580673252739462, 68.95523156944881], [32.53152192979813, 70.48359238854087], [36.3524239775283, 68.10647069589419], [35.40157530046963, 66.57810987680213]], [[38.66571443983019, 73.52229989000699], [39.73252307996306, 74.97209964353775], [43.35702246378995, 72.30507804320555], [42.29021382365708, 70.8552782896748]], [[46.006816436299815, 79.04320768790986], [47.16613663841192, 80.42015237415355], [50.60849835402115, 77.52185186887327], [49.449178151909045, 76.14490718262958]], [[53.55457448632442, 85.3980514775457], [54.713894688436525, 86.7749961637894], [58.156256404045756, 83.87669565850912], [56.99693620193365, 82.49975097226543]]]}}